File: python-workspace/python-mathematical/prob_3_data.csv
displacement(mm),load(kN)
0.01,2.3
0.01,2.5
0.01,2.7
0.01,2.9
0.01,3.1
0.01,3.3
0.01,3.5
0.01,3.7
0.01,3.9
0.01,4.1
0.01,4.3
0.02,4.5
0.02,4.7
0.02,4.9
0.02,5.1
0.02,5.3
0.02,5.5
0.02,5.8
0.02,6
0.02,6.2
0.02,6.4
0.03,6.6
0.03,6.9
0.03,7.1
0.03,7.4
0.03,7.6
0.03,7.8
0.03,8
0.03,8.2
0.03,8.4
0.03,8.7
0.03,8.9
0.03,9.1
0.03,9.3
0.04,9.4
0.04,9.6
0.04,9.8
0.04,10
0.04,10.2
0.04,10.4
0.04,10.6
0.04,10.8
0.04,11
0.04,11.2
0.04,11.4
0.04,11.6
0.05,11.8
0.05,12.2
0.05,12.4
0.05,12.7
0.05,12.9
0.05,13.1
0.05,13.3
0.05,13.5
0.05,13.7
0.05,13.9
0.05,14.2
0.05,14.4
0.06,14.6
0.06,14.8
0.06,15
0.06,15.2
0.06,15.4
0.06,15.6
0.06,15.8
0.06,16
0.06,16.2
0.06,16.4
0.06,16.6
0.06,16.9
0.06,17.2
0.07,17.4
0.07,17.8
0.07,18
0.07,18.2
0.07,18.5
0.07,18.8
0.07,19.1
0.07,19.3
0.07,19.5
0.07,19.9
0.07,20.1
0.07,20.3
0.07,20.6
0.08,20.9
0.08,21.1
0.08,21.3
0.08,21.6
0.08,21.8
0.08,22.2
0.08,22.5
0.08,22.9
0.08,23.1
0.08,23.4
0.08,23.6
0.08,23.9
0.09,24.3
0.09,24.6
0.09,24.8
0.09,25.1
0.09,25.5
0.09,25.7
0.09,25.9
0.09,26.2
0.09,26.5
0.09,26.8
0.09,27
0.09,27.3
0.09,27.6
0.1,27.8
0.1,28.2
0.1,28.5
0.1,28.8
0.1,29
0.1,29.3
0.1,29.6
0.1,29.8
0.1,30.2
0.1,30.5
0.1,30.9
0.11,31.2
0.11,31.6
0.11,31.9
0.11,32.2
0.11,32.5
0.11,32.9
0.11,33.3
0.11,33.8
0.11,34.1
0.11,34.5
0.11,34.8
0.11,35.1
0.11,35.4
0.12,35.7
0.12,36
0.12,36.5
0.12,36.8
0.12,37.1
0.12,37.4
0.12,37.6
0.12,37.9
0.12,38.2
0.12,38.4
0.12,38.6
0.12,38.8
0.12,39.1
0.13,39.3
0.13,39.8
0.13,40
0.13,40.3
0.13,40.6
0.13,40.9
0.13,41.1
0.13,41.4
0.13,41.7
0.13,42
0.13,42.3
0.13,42.5
0.13,42.7
0.13,43
0.13,43.3
0.13,43.5
0.14,43.8
0.14,44
0.14,44.2
0.14,44.5
0.14,44.8
0.14,45
0.14,45.3
0.14,45.6
0.14,46
0.14,46.4
0.15,46.7
0.15,47.1
0.15,47.4
0.15,47.8
0.15,48.1
0.15,48.3
0.15,48.6
0.15,48.9
0.15,49.1
0.15,49.5
0.15,49.7
0.15,50
0.15,50.4
0.15,50.7
0.15,51
0.15,51.4
0.16,51.7
0.16,52
0.16,52.3
0.16,52.6
0.16,53
0.16,53.4
0.16,53.6
0.16,54
0.16,54.3
0.16,54.6
0.16,54.9
0.16,55.2
0.16,55.5
0.17,55.9
0.17,56.2
0.17,56.5
0.17,56.9
0.17,57.2
0.17,57.5
0.17,57.8
0.17,58.1
0.17,58.4
0.17,58.9
0.17,59.2
0.18,59.5
0.18,59.8
0.18,60.1
0.18,60.5
0.18,60.8
0.18,61.1
0.18,61.5
0.18,61.8
0.18,62.1
0.18,62.4
0.18,62.8
0.18,63.1
0.19,63.4
0.19,63.8
0.19,64.3
0.19,64.6
0.19,65
0.19,65.4
0.19,65.6
0.19,65.9
0.19,66.2
0.19,66.4
0.19,66.7
0.19,67.1
0.19,67.5
0.2,67.8
0.2,68.1
0.2,68.5
0.2,68.8
0.2,69.1
0.2,69.3
0.2,69.8
0.2,70
0.2,70.3
0.2,70.6
0.2,70.8
0.2,71.2
0.2,71.5
0.21,71.7
0.21,72.2
0.21,72.7
0.21,73.1
0.21,73.4
0.21,73.8
0.21,74
0.21,74.2
0.21,74.5
0.21,74.7
0.21,74.9
0.21,75.2
0.22,75.5
0.22,75.8
0.22,76.1
0.22,76.4
0.22,76.8
0.22,77.1
0.22,77.3
0.22,77.6
0.22,78
0.22,78.3
0.22,78.6
0.22,78.9
0.22,79.1
0.23,79.4
0.23,79.8
0.23,80.1
0.23,80.4
0.23,80.7
0.23,81.1
0.23,81.4
0.23,81.7
0.23,82.1
0.23,82.4
0.23,82.7
0.23,83
0.23,83.3
0.24,83.7
0.24,84
0.24,84.3
0.24,84.6
0.24,84.8
0.24,85.2
0.24,85.5
0.24,85.7
0.24,86.1
0.24,86.5
0.24,86.8
0.25,87.2
0.25,87.7
0.25,88.1
0.25,88.4
0.25,88.8
0.25,89.3
0.25,89.7
0.25,90
0.25,90.3
0.25,90.5
0.25,90.9
0.26,91.2
0.26,91.5
0.26,92
0.26,92.3
0.26,92.6
0.26,92.9
0.26,93.3
0.26,93.7
0.26,94
0.26,94.3
0.26,94.8
0.27,95.3
0.27,95.6
0.27,95.9
0.27,96.3
0.27,96.6
0.27,96.9
0.27,97.3
0.27,97.7
0.27,98
0.27,98.3
0.27,98.6
0.27,99
0.27,99.3
0.28,99.7
0.28,100
0.28,100.5
0.28,100.8
0.28,101.1
0.28,101.4
0.28,101.7
0.28,102.1
0.28,102.4
0.28,102.7
0.28,103.1
0.29,103.5
0.29,103.8
0.29,104.2
0.29,104.5
0.29,104.8
0.29,105.1
0.29,105.4
0.29,105.6
0.29,106
0.29,106.3
0.29,106.6
0.29,106.9
0.29,107.2
0.29,107.5
0.3,107.8
0.3,108
0.3,108.3
0.3,108.8
0.3,109.1
0.3,109.5
0.3,109.8
0.3,110
0.3,110.3
0.3,110.5
0.3,110.8
0.3,111.1
0.31,111.6
0.31,112.1
0.31,112.4
0.31,112.8
0.31,113.1
0.31,113.4
0.31,113.7
0.31,114.2
0.31,114.5
0.31,114.9
0.31,115.2
0.31,115.5
0.31,115.9
0.32,116.2
0.32,116.6
0.32,117.1
0.32,117.4
0.32,117.7
0.32,118
0.32,118.2
0.32,118.4
0.32,118.6
0.32,118.8
0.32,119.1
0.32,119.4
0.32,119.9
0.33,120.3
0.33,120.6
0.33,120.9
0.33,121.2
0.33,121.6
0.33,121.9
0.33,122.1
0.33,122.6
0.33,122.8
0.33,123.1
0.33,123.4
0.33,123.7
0.33,124
0.34,124.3
0.34,124.6
0.34,125
0.34,125.5
0.34,125.7
0.34,126
0.34,126.2
0.34,126.5
0.34,126.7
0.34,127
0.34,127.3
0.34,127.6
0.35,128.1
0.35,128.7
0.35,129.2
0.35,129.6
0.35,130
0.35,130.4
0.35,130.9
0.35,131.2
0.35,131.5
0.35,131.8
0.35,132.1
0.35,132.5
0.36,132.8
0.36,133.3
0.36,133.8
0.36,134.3
0.36,134.6
0.36,134.9
0.36,135.2
0.36,135.6
0.36,135.9
0.36,136.1
0.37,136.5
0.37,136.9
0.37,137.3
0.37,137.6
0.37,138
0.37,138.3
0.37,138.7
0.37,139
0.37,139.4
0.37,139.7
0.37,140
0.37,140.3
0.38,140.7
0.38,141.1
0.38,141.4
0.38,141.8
0.38,142.2
0.38,142.5
0.38,142.8
0.38,143.1
0.38,143.4
0.38,143.7
0.38,144
0.38,144.2
0.39,144.7
0.39,145.2
0.39,145.5
0.39,145.9
0.39,146.2
0.39,146.5
0.39,146.7
0.39,147
0.39,147.3
0.39,147.6
0.39,148
0.39,148.3
0.4,148.7
0.4,149
0.4,149.3
0.4,149.6
0.4,149.8
0.4,150.1
0.4,150.5
0.4,150.8
0.4,151.1
0.4,151.3
0.4,151.5
0.4,151.8
0.4,152.1
0.41,152.5
0.41,152.8
0.41,153.2
0.41,153.5
0.41,153.8
0.41,154
0.41,154.2
0.41,154.4
0.41,154.6
0.41,154.9
0.41,155.2
0.41,155.5
0.42,155.9
0.42,156.2
0.42,156.5
0.42,156.7
0.42,157
0.42,157.3
0.42,157.5
0.42,157.8
0.42,158
0.42,158.3
0.42,158.6
0.42,158.8
0.42,159
0.43,159.4
0.43,159.6
0.43,159.9
0.43,160.1
0.43,160.3
0.43,160.5
0.43,160.8
0.43,161
0.43,161.2
0.43,161.6
0.43,161.9
0.43,162.3
0.44,162.6
0.44,163
0.44,163.3
0.44,163.6
0.44,163.9
0.44,164.3
0.44,164.7
0.44,164.9
0.44,165.2
0.44,165.4
0.44,165.8
0.45,166.1
0.45,166.5
0.45,166.7
0.45,167.3
0.45,167.5
0.45,167.8
0.45,168.1
0.45,168.3
0.45,168.5
0.45,168.7
0.45,168.9
0.45,169.1
0.45,169.4
0.46,169.8
0.46,170.1
0.46,170.4
0.46,170.7
0.46,171
0.46,171.2
0.46,171.5
0.46,171.8
0.46,172
0.46,172.2
0.46,172.5
0.47,172.8
0.47,173
0.47,173.3
0.47,173.5
0.47,173.9
0.47,174.2
0.47,174.4
0.47,174.7
0.47,175.1
0.47,175.4
0.47,175.7
0.48,175.9
0.48,176.3
0.48,176.6
0.48,176.9
0.48,177.2
0.48,177.4
0.48,177.7
0.48,178
0.48,178.3
0.48,178.6
0.48,178.9
0.48,179.1
0.49,179.6
0.49,179.8
0.49,180.1
0.49,180.4
0.49,180.8
0.49,181.1
0.49,181.3
0.49,181.5
0.49,181.7
0.49,181.9
0.5,182.1
0.5,182.4
0.5,182.6
0.5,183
0.5,183.2
0.5,183.5
0.5,183.8
0.5,184
0.5,184.2
0.5,184.5
0.5,184.7
0.51,184.9
0.51,185.2
0.51,185.4
0.51,185.6
0.51,185.8
0.51,186
0.51,186.2
0.51,186.4
0.51,186.6
0.51,186.8
0.51,187
0.51,187.3
0.52,187.7
0.52,188
0.52,188.3
0.52,188.6
0.52,188.9
0.52,189.3
0.52,189.5
0.52,189.7
0.52,190
0.52,190.2
0.53,190.6
0.53,190.8
0.53,191.1
0.53,191.4
0.53,191.6
0.53,191.8
0.53,192.1
0.53,192.3
0.53,192.5
0.53,192.8
0.53,193
0.54,193.2
0.54,193.5
0.54,193.9
0.54,194.1
0.54,194.3
0.54,194.6
0.54,194.8
0.54,195
0.54,195.3
0.55,195.4
0.55,195.6
0.55,195.8
0.55,196
0.55,196.2
0.55,196.4
0.55,196.6
0.55,196.8
0.55,197
0.55,197.2
0.55,197.4
0.55,197.7
0.56,198.1
0.56,198.4
0.56,198.6
0.56,198.9
0.56,199.1
0.56,199.3
0.56,199.5
0.56,199.8
0.56,200.1
0.57,200.3
0.57,200.5
0.57,200.7
0.57,201
0.57,201.3
0.57,201.5
0.57,201.7
0.57,201.9
0.57,202.1
0.57,202.3
0.58,202.5
0.58,202.7
0.58,202.9
0.58,203.1
0.58,203.3
0.58,203.5
0.58,203.7
0.59,203.9
0.59,204.1
0.59,204.3
0.59,204.5
0.59,204.8
0.59,205.1
0.59,205.3
0.59,205.5
0.59,205.9
0.6,206.2
0.6,206.5
0.6,206.7
0.6,206.9
0.6,207.1
0.6,207.4
0.6,207.6
0.6,207.8
0.6,208
0.61,208.2
0.61,208.6
0.61,208.8
0.61,209.1
0.61,209.3
0.61,209.5
0.61,209.7
0.61,209.9
0.62,210.1
0.62,210.4
0.62,210.7
0.62,211
0.62,211.2
0.62,211.6
0.62,211.8
0.63,212.1
0.63,212.3
0.63,212.5
0.63,212.7
0.63,212.9
0.63,213.1
0.64,213.2
0.64,213.4
0.64,213.6
0.64,213.8
0.64,214
0.64,214.2
0.65,214.3
0.65,214.5
0.65,214.7
0.65,214.9
0.65,215.1
0.66,215.2
0.66,215.4
0.66,215.6
0.66,215.8
0.66,216
0.66,216.2
0.66,216.4
0.67,216.6
0.67,216.8
0.67,217
0.67,217.2
0.67,217.4
0.67,217.6
0.67,217.8
0.68,217.9
0.68,218.1
0.68,218.3
0.68,218.5
0.68,218.7
0.69,218.9
0.69,219.1
0.69,219.3
0.69,219.5
0.7,219.6
0.7,219.8
0.71,219.9
0.71,220.1
0.72,220
0.72,220
0.73,220.1
0.73,220.3
0.73,220.1
0.74,220.3
0.74,220.5
0.74,220.3
0.74,220.1
0.75,220
0.75,219.8
0.75,219.6
0.75,219.4
0.76,219.3
0.76,219.1
0.76,218.9
0.76,218.7
0.76,218.5
0.77,218.3
0.77,218.1
0.77,217.9
0.77,217.7
0.77,217.5
0.77,217.3
0.77,217.1
0.78,216.9
0.78,216.7
0.79,216.5
0.79,216.3
0.79,216.1
0.79,215.9
0.79,215.6
0.79,215.3
0.79,215.1
0.79,214.8
0.79,214.6
0.79,214.4
0.8,214.1
0.8,213.8
0.8,213.4
0.8,213
0.8,212.7
0.8,212.3
0.8,212
0.8,211.7
0.8,211.4
0.81,211.1
0.81,210.8
0.81,210.5
0.81,210.3
0.81,210
0.81,209.7
0.81,209.4
0.81,209.1
0.81,208.9
0.81,208.5
0.82,208.3
0.82,208
0.82,207.7
0.82,207.4
0.82,207.2
0.82,207
0.82,206.7
0.82,206.4
0.82,206.1
0.82,205.9
0.83,205.6
0.83,205.3
0.83,205
0.83,204.7
0.83,204.4
0.83,204.1
0.83,203.8
0.83,203.5
0.83,203.2
0.83,202.9
0.83,202.7
0.83,202.4
0.84,202.2
0.84,201.8
0.84,201.5
0.84,201.3
0.84,201.1
0.84,200.9
0.84,200.6
0.84,200.4
0.84,200.1
0.85,199.9
0.85,199.6
0.85,199.3
0.85,199
0.85,198.7
0.85,198.4
0.85,198
0.85,197.7
0.85,197.4
0.85,197.2
0.86,196.8
0.86,196.4
0.86,196.2
0.86,195.9
0.86,195.6
0.86,195.4
0.86,195.1
0.87,194.8
0.87,194.5
0.87,194
0.87,193.7
0.87,193.4
0.87,193.1
0.87,192.7
0.87,192.4
0.87,192.1
0.87,191.8
0.87,191.4
0.87,191.1
0.88,190.8
0.88,190.5
0.88,190.3
0.88,190.1
0.88,189.9
0.88,189.6
0.88,189.1
0.88,188.8
0.89,188.3
0.89,188
0.89,187.6
0.89,187.3
0.89,186.9
0.89,186.6
0.89,186.2
0.89,185.6
0.89,185.3
0.89,184.9
0.9,183.9
0.9,183.6
0.9,183.4
0.9,183.1
0.9,182.8
0.9,182.5
0.9,182.2
0.91,182
0.91,181.7
0.91,181.4
0.91,181.1
0.91,180.8
0.91,180.5
0.91,180.1
0.91,179.8
0.91,179.5
0.91,179.3
0.91,179
0.91,178.7
0.92,178.4
0.92,178.1
0.92,177.9
0.92,177.5
0.92,177.3
0.92,177
0.92,176.6
0.92,176.3
0.92,175.9
0.93,175.6
0.93,175.2
0.93,174.8
0.93,174.5
0.93,174.2
0.93,173.9
0.93,173.6
0.93,173.4
0.94,172.9
0.94,172.7
0.94,172.4
0.94,171.8
0.94,171.5
0.94,171.2
0.94,170.8
0.94,170.4
0.94,170.1
0.94,169.8
0.95,169.5
0.95,169
0.95,168.7
0.95,168.3
0.95,168
0.95,167.7
0.95,167.3
0.95,167
0.95,166.7
0.95,166.4
0.96,166.2
0.96,165.8
0.96,165.4
0.96,165.2
0.96,164.9
0.96,164.6
0.96,164.4
0.96,164.1
0.96,163.8
0.97,163.3
0.97,163
0.97,162.8
0.97,162.5
0.97,162.3
0.97,162
0.97,161.6
0.97,161.3
0.97,160.9
0.97,160.7
0.98,160.4
0.98,160.1
0.98,159.9
0.98,159.7
0.98,159.5
0.98,159.3
0.98,159
0.98,158.7
0.98,158.4
0.98,158
0.99,157.6
0.99,157.4
0.99,157.1
0.99,156.9
0.99,156.6
0.99,156.3
0.99,155.9
0.99,155.6
0.99,155.2
0.99,154.9
1,154.5
1,154.2
1,153.9
1,153.7
1,153.3
1,153.1
1,152.8
1,152.4
1,152.1
1,151.8
1.01,151.4
1.01,151.2
1.01,151
1.01,150.7
1.01,150.5
1.01,150.3
1.01,150
1.01,149.6
1.01,149.3
1.01,149
1.01,148.8
1.01,148.6
1.01,148.4
1.02,148.2
1.02,148
1.02,147.8
1.02,147.6
1.02,147.3
1.02,146.9
1.02,146.7
1.02,146.4
1.03,146.2
1.03,145.8
1.03,145.5
1.03,145.2
1.03,144.9
1.03,144.6
1.03,144.4
1.03,143.9
1.03,143.6
1.03,143.3
1.03,143.1
1.03,142.8
1.04,142.6
1.04,142.4
1.04,142.1
1.04,141.8
1.04,141.4
1.04,141.1
1.04,140.9
1.04,140.5
1.05,140.4
1.05,140
1.05,139.8
1.05,139.6
1.05,139.3
1.05,139
1.05,138.7
1.05,138.3
1.05,138
1.05,137.8
1.05,137.5
1.06,137.3
1.06,137.1
1.06,136.9
1.06,136.7
1.06,136.5
1.06,136.1
1.06,135.7
1.06,135.4
1.07,135.1
1.07,134.8
1.07,134.5
1.07,134.3
1.07,134.1
1.07,133.9
1.07,133.7
1.07,133.5
1.07,133.1
1.07,132.8
1.08,132.5
1.08,132.3
1.08,131.9
1.08,131.7
1.08,131.4
1.08,131.1
1.08,130.7
1.08,130.4
1.08,130
1.08,129.7
1.09,129.4
1.09,129
1.09,128.7
1.09,128.4
1.09,128.1
1.09,127.9
1.09,127.4
1.09,127.2
1.09,126.9
1.09,126.6
1.1,126.3
1.1,126
1.1,125.7
1.1,125.5
1.1,125.2
1.1,124.9
1.1,124.5
1.1,124.2
1.1,123.9
1.1,123.6
1.11,123.4
1.11,123
1.11,122.7
1.11,122.4
1.11,122.2
1.11,121.8
1.11,121.4
1.11,121.1
1.11,120.8
1.11,120.6
1.11,120.2
1.11,120
1.11,119.8
1.11,119.5
1.11,119.2
1.12,119
1.12,118.8
1.12,118.6
1.12,118.4
1.12,118.2
1.12,118
1.12,117.7
1.12,117.4
1.12,117.2
1.12,116.9
1.13,116.7
1.13,116.5
1.13,116.3
1.13,116.1
1.13,115.9
1.13,115.7
1.13,115.5
1.13,115.3
1.13,115.1
1.14,114.9
1.14,114.7
1.14,114.5
1.14,114.3
1.14,114.1
1.14,113.8
1.14,113.5
1.14,113.2
1.14,113
1.14,112.8
1.15,112.6
1.15,112.4
1.15,112.2
1.15,111.9
1.15,111.6
1.15,111.4
1.15,111.1
1.15,110.8
1.15,110.5
1.16,110.3